File: HW1/HW1_16Ga T2.csv
Partner Data Point File,,,,,
Start of Test Wed 21 Jul 2010 14:11:02,,,,,
Time ( min ),Stress ( psi ),Strain ( in/in ),Position ( in ),Load ( lbf ),Zone
0,7089.041,0.000358,0.0041,207,Speed 1
0.00167,7328.767,0.000369,0.0042,214,Speed 1
0.00333,7534.247,0.000377,0.0044,220,Speed 1
0.005,7739.726,0.000384,0.0045,226,Speed 1
0.00667,7910.959,0.000391,0.0046,231,Speed 1
0.00833,8047.945,0.000397,0.0047,235,Speed 1
0.01,8184.932,0.000403,0.0048,239,Speed 1
0.01167,8287.671,0.000407,0.0049,242,Speed 1
0.01333,8390.411,0.000411,0.0049,245,Speed 1
0.015,8493.151,0.000414,0.005,248,Speed 1
0.01667,8561.644,0.000417,0.0049,250,Speed 1
0.01833,8664.384,0.000419,0.0051,253,Speed 1
0.02,8732.877,0.000421,0.0051,255,Speed 1
0.02167,8801.37,0.000424,0.0052,257,Speed 1
0.02333,8869.864,0.000428,0.0052,259,Speed 1
0.025,8938.357,0.00043,0.0053,261,Speed 1
0.02667,9041.096,0.000433,0.0052,264,Speed 1
0.02833,9109.59,0.000437,0.0053,266,Speed 1
0.03,9178.083,0.000439,0.0053,268,Speed 1
0.03167,9246.576,0.000442,0.0054,270,Speed 1
0.03333,9315.069,0.000445,0.0054,272,Speed 1
0.035,9417.809,0.000448,0.0054,275,Speed 1
0.03667,9486.302,0.00045,0.0055,277,Speed 1
0.03833,9554.795,0.000453,0.0055,279,Speed 1
0.04,9657.535,0.000455,0.0055,282,Speed 1
0.04167,9726.028,0.000459,0.0055,284,Speed 1
0.04333,9794.521,0.000462,0.0055,286,Speed 1
0.045,9863.014,0.000465,0.0056,288,Speed 1
0.04667,9931.507,0.000469,0.0056,290,Speed 1
0.04833,10034.25,0.000472,0.0057,293,Speed 1
0.05,10102.74,0.000475,0.0057,295,Speed 1
0.05167,10171.23,0.000478,0.0057,297,Speed 1
0.05333,10273.97,0.00048,0.0057,300,Speed 1
0.055,10342.47,0.000483,0.0057,302,Speed 1
0.05667,10410.96,0.000484,0.0057,304,Speed 1
0.05833,10513.7,0.000487,0.0058,307,Speed 1
0.06,10582.19,0.000491,0.0058,309,Speed 1
0.06167,10650.69,0.000493,0.0058,311,Speed 1
0.06333,10753.43,0.000497,0.0059,314,Speed 1
0.065,10821.92,0.0005,0.0059,316,Speed 1
0.06667,10924.66,0.000503,0.006,319,Speed 1
0.06833,10993.15,0.000506,0.0059,321,Speed 1
0.07,11061.64,0.00051,0.006,323,Speed 1
0.07167,11130.14,0.000513,0.0061,325,Speed 1
0.07333,11232.88,0.000516,0.0061,328,Speed 1
0.075,11335.62,0.000519,0.0061,331,Speed 1
0.07667,11404.11,0.000521,0.0061,333,Speed 1
0.07833,11472.6,0.000523,0.0061,335,Speed 1
0.08,11541.1,0.000525,0.0062,337,Speed 1
0.08167,11643.84,0.00053,0.0061,340,Speed 1
0.08333,11712.33,0.000532,0.0064,342,Speed 1
0.085,11815.07,0.000536,0.0062,345,Speed 1
0.08667,11883.56,0.000539,0.0063,347,Speed 1
0.08833,11986.3,0.000542,0.0064,350,Speed 1
0.09,12054.8,0.000545,0.0064,352,Speed 1
0.09167,12123.29,0.000549,0.0063,354,Speed 1
0.09333,12226.03,0.000551,0.0065,357,Speed 1
0.095,12294.52,0.000554,0.0064,359,Speed 1
0.09667,12397.26,0.000556,0.0065,362,Speed 1
0.09833,12465.75,0.000559,0.0065,364,Speed 1
0.1,12568.49,0.000563,0.0065,367,Speed 1
0.10167,12636.99,0.000565,0.0065,369,Speed 1
0.10333,12739.73,0.000568,0.0065,372,Speed 1
0.105,12808.22,0.000571,0.0065,374,Speed 1
0.10667,12876.71,0.000575,0.0067,376,Speed 1
0.10833,12979.45,0.000578,0.0066,379,Speed 1
0.11,13047.95,0.000581,0.0067,381,Speed 1
0.11167,13150.69,0.000583,0.0067,384,Speed 1
0.11333,13219.18,0.000586,0.0067,386,Speed 1
0.115,13287.67,0.00059,0.0067,388,Speed 1
0.11667,13390.41,0.000594,0.0067,391,Speed 1
0.11833,13458.9,0.000596,0.0069,393,Speed 1
0.12,13561.64,0.000599,0.0069,396,Speed 1
0.12167,13630.14,0.000602,0.0068,398,Speed 1
0.12333,13732.88,0.000604,0.0069,401,Speed 1
0.125,13801.37,0.000607,0.0069,403,Speed 1
0.12667,13869.86,0.00061,0.0069,405,Speed 1
0.12833,13972.6,0.000613,0.0069,408,Speed 1
0.13,14041.1,0.000616,0.0069,410,Speed 1
0.13167,14143.84,0.00062,0.0071,413,Speed 1
0.13333,14212.33,0.000622,0.007,415,Speed 1
0.135,14315.07,0.000624,0.0071,418,Speed 1
0.13667,14383.56,0.000627,0.0071,420,Speed 1
0.13833,14452.06,0.00063,0.0071,422,Speed 1
0.14,14554.8,0.000633,0.0071,425,Speed 1
0.14167,14623.29,0.000636,0.0072,427,Speed 1
0.14333,14726.03,0.000639,0.0072,430,Speed 1
0.145,14794.52,0.000642,0.0072,432,Speed 1
0.14667,14897.26,0.000645,0.0072,435,Speed 1
0.14833,14965.75,0.000648,0.0072,437,Speed 1
0.15,15068.49,0.00065,0.0072,440,Speed 1
0.15167,15136.99,0.000653,0.0074,442,Speed 1
0.15333,15239.73,0.000656,0.0073,445,Speed 1
0.155,15308.22,0.000659,0.0074,447,Speed 1
0.15667,15376.71,0.000663,0.0074,449,Speed 1
0.15833,15479.45,0.000666,0.0074,452,Speed 1
0.16,15547.95,0.000669,0.0074,454,Speed 1
0.16167,15616.44,0.000672,0.0075,456,Speed 1
0.16333,15719.18,0.000675,0.0074,459,Speed 1
0.165,15821.92,0.000676,0.0076,462,Speed 1
0.16667,15890.41,0.000679,0.0076,464,Speed 1
0.16833,15958.9,0.000682,0.0075,466,Speed 1
0.17,16061.64,0.000685,0.0076,469,Speed 1
0.17167,16130.14,0.000688,0.0076,471,Speed 1
0.17333,16198.63,0.000692,0.0076,473,Speed 1
0.175,16301.37,0.000695,0.0077,476,Speed 1
0.17667,16369.86,0.000697,0.0076,478,Speed 1
0.17833,16472.6,0.0007,0.0076,481,Speed 1
0.18,16541.1,0.000703,0.0078,483,Speed 1
0.18167,16643.84,0.000706,0.0077,486,Speed 1
0.18333,16712.33,0.000709,0.0077,488,Speed 1
0.185,16815.07,0.000712,0.0079,491,Speed 1
0.18667,16883.56,0.000714,0.0078,493,Speed 1
0.18833,16986.3,0.000717,0.0078,496,Speed 1
0.19,17054.8,0.00072,0.0079,498,Speed 1
0.19167,17123.29,0.000723,0.008,500,Speed 1
0.19333,17226.03,0.000726,0.0079,503,Speed 1
0.195,17294.52,0.000729,0.008,505,Speed 1
0.19667,17397.26,0.000731,0.008,508,Speed 1
0.19833,17465.75,0.000734,0.008,510,Speed 1
0.2,17534.25,0.000737,0.008,512,Speed 1
0.20167,17636.99,0.00074,0.0081,515,Speed 1
0.20333,17705.48,0.000743,0.008,517,Speed 1
0.205,17808.22,0.000747,0.0081,520,Speed 1
0.20667,17876.71,0.000749,0.008,522,Speed 1
0.20833,17979.45,0.000752,0.0082,525,Speed 1
0.21,18047.95,0.000755,0.0081,527,Speed 1
0.21167,18150.69,0.000759,0.0082,530,Speed 1
0.21333,18219.18,0.000761,0.0082,532,Speed 1
0.215,18287.67,0.000764,0.0082,534,Speed 1
0.21667,18390.41,0.000766,0.0082,537,Speed 1
0.21833,18458.9,0.000769,0.0082,539,Speed 1
0.22,18561.64,0.000772,0.0083,542,Speed 1
0.22167,18630.14,0.000775,0.0084,544,Speed 1
0.22333,18698.63,0.000778,0.0084,546,Speed 1
0.225,18801.37,0.000782,0.0084,549,Speed 1
0.22667,18869.86,0.000784,0.0085,551,Speed 1
0.22833,18972.6,0.000777,0.0084,554,Speed 1
0.23,19041.1,0.000771,0.0084,556,Speed 1
0.23167,19143.84,0.000768,0.0085,559,Speed 1
0.23333,19212.33,0.000768,0.0084,561,Speed 1
0.235,19280.82,0.000769,0.0085,563,Speed 1
0.23667,19383.56,0.000772,0.0086,566,Speed 1
0.23833,19452.06,0.000775,0.0086,568,Speed 1
0.24,19554.8,0.000779,0.0086,571,Speed 1
0.24167,19623.29,0.000783,0.0086,573,Speed 1
0.24333,19726.03,0.000787,0.0085,576,Speed 1
0.245,19794.52,0.00079,0.0086,578,Speed 1
0.24667,19863.01,0.000794,0.0086,580,Speed 1
0.24833,19965.75,0.000797,0.0087,583,Speed 1
0.25,20034.25,0.000802,0.0086,585,Speed 1
0.25167,20136.99,0.000805,0.0087,588,Speed 1
0.25333,20205.48,0.000808,0.0087,590,Speed 1
0.255,20308.22,0.000811,0.0089,593,Speed 1
0.25667,20376.71,0.000815,0.0089,595,Speed 1
0.25833,20445.21,0.000818,0.0088,597,Speed 1
0.26,20547.95,0.000822,0.0088,600,Speed 1
0.26167,20616.44,0.000825,0.0088,602,Speed 1
0.26333,20719.18,0.000828,0.0089,605,Speed 1
0.265,20787.67,0.000832,0.0089,607,Speed 1
0.26667,20890.41,0.000835,0.009,610,Speed 1
0.26833,20958.9,0.000838,0.0089,612,Speed 1
0.27,21061.65,0.000842,0.0089,615,Speed 1
0.27167,21130.14,0.000846,0.009,617,Speed 1
0.27333,21232.88,0.000848,0.009,620,Speed 1
0.275,21301.37,0.000852,0.009,622,Speed 1
0.27667,21369.86,0.000855,0.0091,624,Speed 1
0.27833,21472.6,0.000858,0.0092,627,Speed 1
0.28,21541.1,0.000861,0.0092,629,Speed 1
0.28167,21643.84,0.000865,0.0091,632,Speed 1
0.28333,21712.33,0.000869,0.0092,634,Speed 1
0.285,21780.82,0.000872,0.0092,636,Speed 1
0.28667,21883.56,0.000875,0.0093,639,Speed 1
0.28833,21952.06,0.000878,0.0093,641,Speed 1
0.29,22054.8,0.000881,0.0093,644,Speed 1
0.29167,22123.29,0.000885,0.0093,646,Speed 1
0.29333,22226.03,0.000887,0.0093,649,Speed 1
0.295,22294.52,0.000889,0.0093,651,Speed 1
0.29667,22397.26,0.00089,0.0094,654,Speed 1
0.29833,22465.75,0.000893,0.0094,656,Speed 1
0.3,22534.25,0.000897,0.0094,658,Speed 1
0.30167,22636.99,0.000899,0.0094,661,Speed 1
0.30333,22705.48,0.000902,0.0094,663,Speed 1
0.305,22808.22,0.000906,0.0095,666,Speed 1
0.30667,22876.71,0.000909,0.0095,668,Speed 1
0.30833,22945.21,0.000912,0.0095,670,Speed 1
0.31,23047.95,0.000915,0.0096,673,Speed 1
0.31167,23116.44,0.000919,0.0096,675,Speed 1
0.31333,23219.18,0.000921,0.0096,678,Speed 1
0.315,23287.67,0.000924,0.0096,680,Speed 1
0.31667,23390.41,0.000928,0.0096,683,Speed 1
0.31833,23458.91,0.000932,0.0097,685,Speed 1
0.32,23561.65,0.000936,0.0096,688,Speed 1
0.32167,23630.14,0.000939,0.0097,690,Speed 1
0.32333,23732.88,0.000941,0.0098,693,Speed 1
0.325,23801.37,0.000944,0.0098,695,Speed 1
0.32667,23869.86,0.000948,0.0098,697,Speed 1
0.32833,23972.6,0.00095,0.0098,700,Speed 1
0.33,24041.1,0.000953,0.0098,702,Speed 1
0.33167,24143.84,0.000956,0.0099,705,Speed 1
0.33333,24212.33,0.000959,0.0098,707,Speed 1
0.335,24280.82,0.000963,0.0098,709,Speed 1
0.33667,24383.56,0.000965,0.01,712,Speed 1
0.33833,24486.3,0.000967,0.0099,715,Speed 1
0.34,24554.8,0.000971,0.0099,717,Speed 1
0.34167,24623.29,0.000973,0.01,719,Speed 1
0.34333,24726.03,0.000977,0.01,722,Speed 1
0.345,24794.52,0.000979,0.0101,724,Speed 1
0.34667,24863.01,0.000981,0.01,726,Speed 1
0.34833,24965.75,0.000985,0.0101,729,Speed 1
0.35,25068.49,0.000987,0.0102,732,Speed 1
0.35167,25136.99,0.00099,0.0102,734,Speed 1
0.35333,25205.48,0.000992,0.0102,736,Speed 1
0.355,25308.22,0.000994,0.0102,739,Speed 1
0.35667,25376.71,0.000996,0.0102,741,Speed 1
0.35833,25479.45,0.000998,0.0103,744,Speed 1
0.36,25547.95,0.001001,0.0102,746,Speed 1
0.36167,25616.44,0.001003,0.0102,748,Speed 1
0.36333,25719.18,0.001007,0.0104,751,Speed 1
0.365,25787.67,0.001011,0.0103,753,Speed 1
0.36667,25890.41,0.001014,0.0104,756,Speed 1
0.36833,25958.91,0.001016,0.0103,758,Speed 1
0.37,26061.65,0.001019,0.0104,761,Speed 1
0.37167,26130.14,0.001022,0.0105,763,Speed 1
0.37333,26198.63,0.001025,0.0104,765,Speed 1
0.375,26301.37,0.001029,0.0104,768,Speed 1
0.37667,26369.86,0.001032,0.0106,770,Speed 1
0.37833,26472.6,0.001035,0.0105,773,Speed 1
0.38,26541.1,0.001038,0.0105,775,Speed 1
0.38167,26643.84,0.00104,0.0106,778,Speed 1
0.38333,26712.33,0.001043,0.0106,780,Speed 1
0.385,26780.82,0.001046,0.0107,782,Speed 1
0.38667,26883.56,0.001049,0.0107,785,Speed 1
0.38833,26952.06,0.001052,0.0106,787,Speed 1
0.39,27054.8,0.001054,0.0107,790,Speed 1
0.39167,27123.29,0.001058,0.0107,792,Speed 1
0.39333,27226.03,0.00106,0.0107,795,Speed 1
0.395,27294.52,0.001064,0.0107,797,Speed 1
0.39667,27363.01,0.001066,0.0107,799,Speed 1
0.39833,27465.75,0.001069,0.0108,802,Speed 1
0.4,27534.25,0.001072,0.0108,804,Speed 1
0.40167,27636.99,0.001076,0.0108,807,Speed 1
0.40333,27705.48,0.001079,0.0109,809,Speed 1
0.405,27808.22,0.001081,0.0109,812,Speed 1
0.40667,27876.71,0.001083,0.011,814,Speed 1
0.40833,27979.45,0.001086,0.011,817,Speed 1
0.41,28047.95,0.001088,0.0109,819,Speed 1
0.41167,28116.44,0.001092,0.0109,821,Speed 1
0.41333,28219.18,0.001094,0.0109,824,Speed 1
0.415,28287.67,0.001098,0.011,826,Speed 1
0.41667,28390.41,0.001101,0.0111,829,Speed 1
0.41833,28458.91,0.001104,0.011,831,Speed 1
0.42,28561.65,0.001107,0.0111,834,Speed 1
0.42167,28630.14,0.001109,0.0111,836,Speed 1
0.42333,28698.63,0.001112,0.0112,838,Speed 1
0.425,28801.37,0.001116,0.0112,841,Speed 1
0.42667,28869.86,0.001118,0.0111,843,Speed 1
0.42833,28972.6,0.001118,0.0112,846,Speed 1
0.43,29041.1,0.001121,0.0112,848,Speed 1
0.43167,29143.84,0.001124,0.0112,851,Speed 1
0.43333,29212.33,0.001127,0.0113,853,Speed 1
0.435,29280.82,0.001129,0.0113,855,Speed 1
0.43667,29383.56,0.001133,0.0113,858,Speed 1
0.43833,29452.06,0.001137,0.0113,860,Speed 1
0.44,29554.8,0.001139,0.0114,863,Speed 1
0.44167,29623.29,0.001142,0.0113,865,Speed 1
0.44333,29726.03,0.001145,0.0115,868,Speed 1
0.445,29794.52,0.001148,0.0115,870,Speed 1
0.44667,29897.26,0.001151,0.0114,873,Speed 1
0.44833,29965.75,0.001153,0.0115,875,Speed 1
0.45,30034.25,0.001155,0.0115,877,Speed 1
0.45167,30136.99,0.001159,0.0115,880,Speed 1
0.45333,30205.48,0.001161,0.0115,882,Speed 1
0.455,30308.22,0.001164,0.0116,885,Speed 1
0.45667,30376.71,0.001168,0.0116,887,Speed 1
0.45833,30479.45,0.001172,0.0117,890,Speed 1
0.46,30547.95,0.001174,0.0117,892,Speed 1
0.46167,30650.69,0.001177,0.0116,895,Speed 1
0.46333,30719.18,0.00118,0.0117,897,Speed 1
0.465,30787.67,0.001183,0.0117,899,Speed 1
0.46667,30890.41,0.001186,0.0117,902,Speed 1
0.46833,30958.91,0.001189,0.0117,904,Speed 1
0.47,31061.65,0.001192,0.0118,907,Speed 1
0.47167,31130.14,0.001193,0.0118,909,Speed 1
0.47333,31198.63,0.001196,0.0119,911,Speed 1
0.475,31301.37,0.001199,0.0119,914,Speed 1
0.47667,31369.86,0.001202,0.0118,916,Speed 1
0.47833,31472.6,0.001205,0.0118,919,Speed 1
0.48,31541.1,0.001208,0.0119,921,Speed 1
0.48167,31643.84,0.00121,0.0119,924,Speed 1
0.48333,31712.33,0.001212,0.0119,926,Speed 1
0.485,31815.07,0.001214,0.0119,929,Speed 1
0.48667,31883.56,0.001217,0.0121,931,Speed 1
0.48833,31952.06,0.00122,0.012,933,Speed 1
0.49,32054.8,0.001223,0.0121,936,Speed 1
0.49167,32123.29,0.001226,0.012,938,Speed 1
0.49333,32226.03,0.001228,0.0121,941,Speed 1
0.495,32294.52,0.001231,0.012,943,Speed 1
0.49667,32363.01,0.001234,0.0121,945,Speed 1
0.49833,32465.75,0.001237,0.0122,948,Speed 1
0.5,32534.25,0.00124,0.0122,950,Speed 1
0.50167,32636.99,0.001242,0.0122,953,Speed 1
0.50333,32705.48,0.001244,0.0122,955,Speed 1
0.505,32808.22,0.001247,0.0122,958,Speed 1
0.50667,32876.71,0.001249,0.0123,960,Speed 1
0.50833,32979.45,0.00125,0.0123,963,Speed 1
0.51,33047.95,0.001251,0.0124,965,Speed 1
0.51167,33150.69,0.001253,0.0124,968,Speed 1
0.51333,33219.18,0.001256,0.0123,970,Speed 1
0.515,33287.67,0.001259,0.0124,972,Speed 1
0.51667,33390.41,0.001262,0.0124,975,Speed 1
0.51833,33458.91,0.001265,0.0124,977,Speed 1
0.52,33561.65,0.001269,0.0124,980,Speed 1
0.52167,33630.14,0.001272,0.0124,982,Speed 1
0.52333,33698.63,0.001275,0.0126,984,Speed 1
0.525,33801.37,0.001278,0.0124,987,Speed 1
0.52667,33869.86,0.001281,0.0125,989,Speed 1
0.52833,33972.6,0.001284,0.0126,992,Speed 1
0.53,34041.1,0.001287,0.0126,994,Speed 1
0.53167,34143.84,0.00129,0.0126,997,Speed 1
0.53333,34212.33,0.001293,0.0127,999,Speed 1
0.535,34280.82,0.001296,0.0126,1001,Speed 1
0.53667,34383.56,0.001299,0.0127,1004,Speed 1
0.53833,34452.06,0.001302,0.0127,1006,Speed 1
0.54,34554.8,0.001304,0.0127,1009,Speed 1
0.54167,34623.29,0.001307,0.0128,1011,Speed 1
0.54333,34726.03,0.00131,0.0128,1014,Speed 1
0.545,34794.52,0.001313,0.0128,1016,Speed 1
0.54667,34863.01,0.001316,0.0128,1018,Speed 1
0.54833,34965.75,0.001319,0.0128,1021,Speed 1
0.55,35034.25,0.001322,0.013,1023,Speed 1
0.55167,35136.99,0.001325,0.0128,1026,Speed 1
0.55333,35205.48,0.001326,0.0129,1028,Speed 1
0.555,35308.22,0.001329,0.013,1031,Speed 1
0.55667,35376.71,0.001332,0.013,1033,Speed 1
0.55833,35479.45,0.001334,0.013,1036,Speed 1
0.56,35547.95,0.001337,0.013,1038,Speed 1
0.56167,35616.44,0.00134,0.013,1040,Speed 1
0.56333,35719.18,0.001343,0.0131,1043,Speed 1
0.565,35787.67,0.001346,0.013,1045,Speed 1
0.56667,35890.41,0.001349,0.013,1048,Speed 1
0.56833,35958.91,0.001352,0.013,1050,Speed 1
0.57,36061.65,0.001355,0.0131,1053,Speed 1
0.57167,36130.14,0.001358,0.0132,1055,Speed 1
0.57333,36198.63,0.00136,0.0131,1057,Speed 1
0.575,36301.37,0.001363,0.0132,1060,Speed 1
0.57667,36369.86,0.001367,0.0132,1062,Speed 1
0.57833,36472.6,0.001369,0.0133,1065,Speed 1
0.58,36541.1,0.001371,0.0133,1067,Speed 1
0.58167,36643.84,0.001374,0.0134,1070,Speed 1
0.58333,36712.33,0.001376,0.0133,1072,Speed 1
0.585,36780.82,0.001379,0.0134,1074,Speed 1
0.58667,36883.56,0.001382,0.0134,1077,Speed 1
0.58833,36952.06,0.001386,0.0134,1079,Speed 1
0.59,37054.8,0.001388,0.0135,1082,Speed 1
0.59167,37123.29,0.001392,0.0134,1084,Speed 1
0.59333,37226.03,0.001395,0.0135,1087,Speed 1
0.595,37294.52,0.001397,0.0135,1089,Speed 1
0.59667,37397.26,0.0014,0.0135,1092,Speed 1
0.59833,37465.75,0.001402,0.0135,1094,Speed 1
0.6,37534.25,0.001405,0.0135,1096,Speed 1
0.60167,37636.99,0.001408,0.0136,1099,Speed 1
0.60333,37705.48,0.00141,0.0137,1101,Speed 1
0.605,37808.22,0.001412,0.0137,1104,Speed 1
0.60667,37876.71,0.001412,0.0136,1106,Speed 1
0.60833,37945.21,0.001414,0.0137,1108,Speed 1
0.61,38047.95,0.001416,0.0138,1111,Speed 1
0.61167,38116.44,0.001418,0.0137,1113,Speed 1
0.61333,38219.18,0.00142,0.0138,1116,Speed 1
0.615,38287.67,0.001423,0.0137,1118,Speed 1
0.61667,38390.41,0.001426,0.0137,1121,Speed 1
0.61833,38458.91,0.001429,0.0137,1123,Speed 1
0.62,38561.65,0.001432,0.0138,1126,Speed 1
0.62167,38630.14,0.001435,0.0138,1128,Speed 1
0.62333,38698.63,0.001438,0.0139,1130,Speed 1
0.625,38801.37,0.00144,0.014,1133,Speed 1
0.62667,38869.86,0.001444,0.0139,1135,Speed 1
0.62833,38972.6,0.001447,0.0139,1138,Speed 1
0.63,39041.1,0.001449,0.014,1140,Speed 1
0.63167,39143.84,0.001454,0.0141,1143,Speed 1
0.63333,39212.33,0.001456,0.014,1145,Speed 1
0.635,39280.82,0.001459,0.014,1147,Speed 1
0.63667,39383.56,0.001462,0.0141,1150,Speed 1
0.63833,39452.06,0.001466,0.0141,1152,Speed 1
0.64,39554.8,0.001468,0.0142,1155,Speed 1
0.64167,39623.29,0.001471,0.0142,1157,Speed 1
0.64333,39726.03,0.001475,0.0141,1160,Speed 1
0.645,39794.52,0.001477,0.0142,1162,Speed 1
0.64667,39897.26,0.00148,0.0143,1165,Speed 1
0.64833,39965.75,0.001483,0.0142,1167,Speed 1
0.65,40034.25,0.001485,0.0142,1169,Speed 1
0.65167,40136.99,0.001489,0.0143,1172,Speed 2
0.65333,40205.48,0.001491,0.0143,1174,Speed 2
0.655,40582.19,0.001503,0.0148,1185,Speed 2
0.65667,42328.77,0.00156,0.0159,1236,Speed 2
0.65833,44897.26,0.001644,0.0166,1311,Speed 2
0.66,47431.51,0.001727,0.0175,1385,Speed 2
0.66167,50000,0.001815,0.0184,1460,Speed 2
0.66333,52636.99,0.001906,0.0193,1537,Speed 2
0.665,55000,0.002,0.0201,1606,Speed 2
0.66667,56917.81,0.002119,0.0209,1662,Speed 2
0.66833,58116.44,0.002285,0.0218,1697,Speed 2
0.67,58527.4,0.002536,0.0227,1709,Speed 2
0.67167,58493.15,0.002863,0.0235,1708,Speed 2
0.67333,58356.17,0.003233,0.0243,1704,Speed 2
0.675,58184.93,0.003632,0.0252,1699,Speed 2
0.67667,57945.21,0.004042,0.026,1692,Speed 2
0.67833,57842.47,0.004444,0.0269,1689,Speed 2
0.68,57808.22,0.004832,0.0277,1688,Speed 2
0.68167,57739.73,0.005184,0.0286,1686,Speed 2
0.68333,57636.99,0.005493,0.0294,1683,Speed 2
0.685,57602.74,0.005758,0.0302,1682,Speed 2
0.68667,57671.24,0.006003,0.031,1684,Speed 2
0.68833,57705.48,0.00623,0.0319,1685,Speed 2
0.69,57773.98,0.00644,0.0328,1687,Speed 2
0.69167,57876.71,0.006632,0.0336,1690,Speed 2
0.69333,57945.21,0.006805,0.0344,1692,Speed 2
0.695,58047.95,0.006967,0.0352,1695,Speed 2
0.69667,58082.19,0.007128,0.036,1696,Speed 2
0.69833,58150.69,0.00729,0.0369,1698,Speed 2
0.7,58116.44,0.007452,0.0377,1697,Speed 2
0.70167,58082.19,0.007628,0.0385,1696,Speed 2
0.70333,58082.19,0.007831,0.0394,1696,Speed 2
0.705,58047.95,0.008044,0.0402,1695,Speed 2
0.70667,58082.19,0.008255,0.0411,1696,Speed 2
0.70833,58082.19,0.008453,0.0419,1696,Speed 2
0.71,58116.44,0.008641,0.0427,1697,Speed 2
0.71167,58150.69,0.008819,0.0436,1698,Speed 2
0.71333,58184.93,0.008986,0.0444,1699,Speed 2
0.715,58219.18,0.009163,0.0452,1700,Speed 2
0.71667,58219.18,0.009337,0.0461,1700,Speed 2
0.71833,58219.18,0.009516,0.0469,1700,Speed 2
0.72,58253.43,0.009696,0.0477,1701,Speed 2
0.72167,58287.67,0.009886,0.0485,1702,Speed 2
0.72333,58321.92,0.010081,0.0493,1703,Speed 2
0.725,58424.66,0.010283,0.0502,1706,Speed 2
0.72667,58527.4,0.010482,0.0511,1709,Speed 2
0.72833,58630.14,0.010681,0.0519,1712,Speed 2
0.73,58732.88,0.010882,0.0527,1715,Speed 2
0.73167,58869.87,0.011078,0.0535,1719,Speed 2
0.73333,58904.11,0.011268,0.0544,1720,Speed 2
0.735,58904.11,0.011447,0.0553,1720,Speed 2
0.73667,58869.87,0.011615,0.056,1719,Speed 2
0.73833,58801.37,0.011763,0.0569,1717,Speed 2
0.74,58664.39,0.011893,0.0578,1713,Speed 2
0.74167,58561.65,0.012011,0.0586,1710,Speed 2
0.74333,58561.65,0.012125,0.0593,1710,Speed 2
0.745,58664.39,0.01225,0.0602,1713,Speed 2
0.74667,58835.62,0.012393,0.0611,1718,Speed 2
0.74833,58972.61,0.012564,0.0619,1722,Speed 2
0.75,59075.34,0.01276,0.0628,1725,Speed 2
0.75167,59143.84,0.012983,0.0636,1727,Speed 2
0.75333,59212.33,0.01323,0.0644,1729,Speed 2
0.755,59315.07,0.013499,0.0652,1732,Speed 2
0.75667,59383.56,0.013776,0.066,1734,Speed 2
0.75833,59417.81,0.014045,0.0669,1735,Speed 2
0.76,59486.3,0.014313,0.0678,1737,Speed 2
0.76167,59554.8,0.01458,0.0686,1739,Speed 2
0.76333,59623.29,0.014849,0.0694,1741,Speed 2
0.765,59691.78,0.015114,0.0702,1743,Speed 2
0.76667,59760.28,0.015374,0.071,1745,Speed 2
0.76833,59863.02,0.015633,0.0719,1748,Speed 2
0.77,59931.51,0.015886,0.0728,1750,Speed 2
0.77167,59965.76,0.01613,0.0735,1751,Speed 2
0.77333,60034.25,0.016368,0.0744,1753,Speed 2
0.775,60102.74,0.016604,0.0752,1755,Speed 2
0.77667,60171.24,0.01684,0.0761,1757,Speed 2
0.77833,60205.48,0.017073,0.0769,1758,Speed 2
0.78,60273.98,0.017308,0.0777,1760,Speed 2
0.78167,60342.47,0.017544,0.0786,1762,Speed 2
0.78333,60410.96,0.017779,0.0793,1764,Speed 2
0.785,60479.45,0.018016,0.0803,1766,Speed 2
0.78667,60547.95,0.018256,0.0811,1768,Speed 2
0.78833,60616.44,0.018499,0.0819,1770,Speed 2
0.79,60650.69,0.01874,0.0828,1771,Speed 2
0.79167,60684.93,0.018986,0.0836,1772,Speed 2
0.79333,60753.43,0.019233,0.0844,1774,Speed 2
0.795,60821.92,0.019483,0.0852,1776,Speed 2
0.79667,60821.92,0.019738,0.0861,1776,Speed 2
0.79833,60821.92,0.020004,0.0869,1776,Speed 2
0.8,60787.67,0.020297,0.0878,1775,Speed 2
0.80167,60684.93,0.020607,0.0886,1772,Speed 2
0.80333,60616.44,0.020934,0.0894,1770,Speed 2
0.805,60582.19,0.021269,0.0903,1769,Speed 2
0.80667,60616.44,0.021612,0.0911,1770,Speed 2
0.80833,60650.69,0.021956,0.092,1771,Speed 2
0.81,60684.93,0.022299,0.0928,1772,Speed 2
0.81167,60753.43,0.022634,0.0936,1774,Speed 2
0.81333,60856.17,0.022973,0.0944,1777,Speed 2
0.815,60821.92,0.023312,0.0953,1776,Speed 2
0.81667,60650.69,0.023665,0.0961,1771,Speed 2
0.81833,60479.45,0.024028,0.0969,1766,Speed 2
0.82,60376.71,0.024407,0.0978,1763,Speed 2
0.82167,60136.99,0.024797,0.0985,1756,Speed 2
0.82333,59931.51,0.025191,0.0994,1750,Speed 2
0.825,59828.77,0.025588,0.1002,1747,Speed 2
0.82667,59691.78,0.02599,0.1011,1743,Speed 2
0.82833,59486.3,0.026394,0.1019,1737,Speed 2
0.83,59349.32,0.0268,0.1028,1733,Speed 2
0.83167,59280.82,0.027205,0.1035,1731,Speed 2
0.83333,59315.07,0.027606,0.1044,1732,Speed 2
0.835,59383.56,0.028007,0.1052,1734,Speed 2
0.83667,59452.06,0.028406,0.1061,1736,Speed 2
0.83833,59383.56,0.028811,0.1069,1734,Speed 2
0.84,59109.59,0.029231,0.1078,1726,Speed 2
0.84167,58938.36,0.029643,0.1086,1721,Speed 2
0.84333,58869.87,0.030051,0.1094,1719,Speed 2
0.845,58801.37,0.03046,0.1102,1717,Speed 2
0.84667,58767.13,0.030868,0.111,1716,Speed 2
0.84833,58801.37,0.031274,0.1119,1717,Speed 2
0.85,58835.62,0.031673,0.1128,1718,Speed 2
0.85167,58972.61,0.032069,0.1136,1722,Speed 2
0.85333,59075.34,0.032457,0.1143,1725,Speed 2
0.855,59212.33,0.032845,0.1153,1729,Speed 2
0.85667,59383.56,0.033231,0.1161,1734,Speed 2
0.85833,59554.8,0.033619,0.1168,1739,Speed 2
0.86,59726.03,0.034005,0.1177,1744,Speed 2
0.86167,59897.26,0.034386,0.1185,1749,Speed 2
0.86333,60034.25,0.034765,0.1194,1753,Speed 2
0.865,60171.24,0.035141,0.1202,1757,Speed 2
0.86667,60308.22,0.035519,0.1211,1761,Speed 2
0.86833,60410.96,0.035895,0.1219,1764,Speed 2
0.87,60513.7,0.036268,0.1228,1767,Speed 2
0.87167,60547.95,0.036639,0.1236,1768,Speed 2
0.87333,60513.7,0.037009,0.1243,1767,Speed 2
0.875,60342.47,0.037394,0.1252,1762,Speed 2
0.87667,60171.24,0.037783,0.1261,1757,Speed 2
0.87833,59965.76,0.038184,0.1269,1751,Speed 2
0.88,59828.77,0.038585,0.1276,1747,Speed 2
0.88167,59726.03,0.038996,0.1285,1744,Speed 2
0.88333,59589.04,0.039406,0.1294,1740,Speed 2
0.885,59452.06,0.039816,0.1302,1736,Speed 2
0.88667,59417.81,0.040229,0.1311,1735,Speed 2
0.88833,59417.81,0.040637,0.1319,1735,Speed 2
0.89,59383.56,0.041041,0.1328,1734,Speed 2
0.89167,59349.32,0.041446,0.1336,1733,Speed 2
0.89333,59315.07,0.041857,0.1344,1732,Speed 2
0.895,59246.58,0.042266,0.1352,1730,Speed 2
0.89667,59178.08,0.042672,0.1361,1728,Speed 2
0.89833,59212.33,0.043073,0.1369,1729,Speed 2
0.9,59280.82,0.043476,0.1376,1731,Speed 2
0.90167,59383.56,0.043876,0.1385,1734,Speed 2
0.90333,59486.3,0.044273,0.1393,1737,Speed 2
0.905,59623.29,0.044669,0.1402,1741,Speed 2
0.90667,59726.03,0.045065,0.141,1744,Speed 2
0.90833,59863.02,0.045458,0.1419,1748,Speed 2
0.91,59965.76,0.045852,0.1428,1751,Speed 2
0.91167,60068.5,0.046248,0.1435,1754,Speed 2
0.91333,60171.24,0.046642,0.1443,1757,Speed 2
0.915,60239.73,0.047035,0.1452,1759,Speed 2
0.91667,60239.73,0.047429,0.146,1759,Speed 2
0.91833,60102.74,0.047835,0.1469,1755,Speed 2
0.92,59863.02,0.048242,0.1478,1748,Speed 2
0.92167,59589.04,0.048654,0.1486,1740,Speed 2
0.92333,59349.32,0.049064,0.1494,1733,Speed 2
0.925,59212.33,0.04947,0.1502,1729,Speed 2
0.92667,59212.33,0.049871,0.151,1729,Speed 2
0.92833,59280.82,0.050273,0.1518,1731,Speed 2
0.93,59383.56,0.050671,0.1527,1734,Speed 2
0.93167,59452.06,0.051065,0.1535,1736,Speed 2
0.93333,59554.8,0.051465,0.1543,1739,Speed 2
0.935,59452.06,0.051878,0.1553,1736,Speed 2
0.93667,59383.56,0.052288,0.156,1734,Speed 2
0.93833,59417.81,0.052694,0.1569,1735,Speed 2
0.94,59383.56,0.0531,0.1577,1734,Speed 2
0.94167,59315.07,0.053508,0.1586,1732,Speed 2
0.94333,59246.58,0.053913,0.1594,1730,Speed 2
0.945,59109.59,0.054315,0.1603,1726,Speed 2
0.94667,58869.87,0.054727,0.1611,1719,Speed 2
0.94833,58493.15,0.055148,0.1619,1708,Speed 2
0.95,58082.19,0.055567,0.1627,1696,Speed 2
0.95167,57808.22,0.055979,0.1635,1688,Speed 2
0.95333,57705.48,0.056385,0.1644,1685,Speed 2
0.955,57636.99,0.056788,0.1652,1683,Speed 2
0.95667,57602.74,0.057192,0.1661,1682,Speed 2
0.95833,57705.48,0.057587,0.1669,1685,Speed 2
0.96,57876.71,0.057979,0.1678,1690,Speed 2
0.96167,58082.19,0.058365,0.1685,1696,Speed 2
0.96333,58356.17,0.058746,0.1694,1704,Speed 2
0.965,58664.39,0.059123,0.1702,1713,Speed 2
0.96667,58938.36,0.0595,0.1711,1721,Speed 2
0.96833,59212.33,0.059868,0.1719,1729,Speed 2
0.97,59520.55,0.06023,0.1728,1738,Speed 2
0.97167,59794.52,0.060585,0.1734,1746,Speed 2
0.97333,60034.25,0.060934,0.1744,1753,Speed 2
0.975,60273.98,0.061281,0.1752,1760,Speed 2
0.97667,60445.21,0.061622,0.176,1765,Speed 2
0.97833,60616.44,0.061958,0.1769,1770,Speed 2
0.98,60787.67,0.062294,0.1776,1775,Speed 2
0.98167,60924.66,0.06263,0.1786,1779,Speed 2
0.98333,61027.4,0.062965,0.1794,1782,Speed 2
0.985,61130.14,0.063299,0.1802,1785,Speed 2
0.98667,61232.88,0.063637,0.1811,1788,Speed 2
0.98833,61335.62,0.063978,0.1819,1791,Speed 2
0.99,61404.11,0.064324,0.1827,1793,Speed 2
0.99167,61472.61,0.064668,0.1835,1795,Speed 2
0.99333,61575.34,0.06502,0.1844,1798,Speed 2
0.995,61609.59,0.065368,0.1853,1799,Speed 2
0.99667,61643.84,0.065719,0.1861,1800,Speed 2
0.99833,61712.33,0.066069,0.1869,1802,Speed 2
1,61746.58,0.066422,0.1878,1803,Speed 2
1.00167,61780.82,0.066771,0.1886,1804,Speed 2
1.00333,61849.32,0.067119,0.1894,1806,Speed 2
1.005,61883.56,0.067466,0.1902,1807,Speed 2
1.00667,61917.81,0.067815,0.1911,1808,Speed 2
1.00833,61952.06,0.068159,0.1918,1809,Speed 2
1.01,61986.3,0.068503,0.1927,1810,Speed 2
1.01167,62020.55,0.068846,0.1936,1811,Speed 2
1.01333,62054.8,0.069184,0.1944,1812,Speed 2
1.015,62054.8,0.06952,0.1952,1812,Speed 2
1.01667,62123.29,0.069855,0.1961,1814,Speed 2
1.01833,62123.29,0.070194,0.1969,1814,Speed 2
1.02,62157.54,0.070531,0.1976,1815,Speed 2
1.02167,62191.78,0.07087,0.1986,1816,Speed 2
1.02333,62226.03,0.071201,0.1994,1817,Speed 2
1.025,62260.28,0.071537,0.2003,1818,Speed 2
1.02667,62294.52,0.071874,0.2011,1819,Speed 2
1.02833,62294.52,0.072209,0.2019,1819,Speed 2
1.03,62328.77,0.07254,0.2027,1820,Speed 2
1.03167,62363.02,0.072872,0.2035,1821,Speed 2
1.03333,62397.26,0.073202,0.2044,1822,Speed 2
1.035,62431.51,0.073532,0.2052,1823,Speed 2
1.03667,62431.51,0.073865,0.2061,1823,Speed 2
1.03833,62465.76,0.074193,0.2069,1824,Speed 2
1.04,62500,0.074522,0.2078,1825,Speed 2
1.04167,62534.25,0.074852,0.2086,1826,Speed 2
1.04333,62568.5,0.075183,0.2094,1827,Speed 2
1.045,62568.5,0.075516,0.2102,1827,Speed 2
1.04667,62602.74,0.075845,0.2111,1828,Speed 2
1.04833,62602.74,0.076174,0.2119,1828,Speed 2
1.05,62636.99,0.076498,0.2127,1829,Speed 2
1.05167,62671.24,0.076829,0.2135,1830,Speed 2
1.05333,62705.48,0.077158,0.2144,1831,Speed 2
1.055,62705.48,0.077484,0.2152,1831,Speed 2
1.05667,62739.73,0.077812,0.2161,1832,Speed 2
1.05833,62739.73,0.078138,0.2169,1832,Speed 2
1.06,62773.98,0.078465,0.2177,1833,Speed 2
1.06167,62808.22,0.078793,0.2185,1834,Speed 2
1.06333,62808.22,0.079121,0.2194,1834,Speed 2
1.065,62842.47,0.079448,0.2202,1835,Speed 2
1.06667,62842.47,0.079771,0.2211,1835,Speed 2
1.06833,62876.71,0.080099,0.2219,1836,Speed 2
1.07,62910.96,0.080423,0.2228,1837,Speed 2
1.07167,62910.96,0.080749,0.2236,1837,Speed 2
1.07333,62945.21,0.081077,0.2244,1838,Speed 2
1.075,62979.45,0.081405,0.2252,1839,Speed 2
1.07667,62979.45,0.081729,0.2261,1839,Speed 2
1.07833,63013.7,0.082057,0.2269,1840,Speed 2
1.08,63047.95,0.082387,0.2277,1841,Speed 2
1.08167,63047.95,0.082716,0.2285,1841,Speed 2
1.08333,63047.95,0.083045,0.2294,1841,Speed 2
1.085,63082.19,0.083374,0.2302,1842,Speed 2
1.08667,63116.44,0.083703,0.2311,1843,Speed 2
1.08833,63116.44,0.084033,0.2318,1843,Speed 2
1.09,63150.69,0.08436,0.2328,1844,Speed 2
1.09167,63184.93,0.084688,0.2335,1845,Speed 2
1.09333,63184.93,0.085015,0.2344,1845,Speed 2
1.095,63219.18,0.085341,0.2353,1846,Speed 2
1.09667,63219.18,0.085669,0.2361,1846,Speed 2
1.09833,63253.43,0.085998,0.237,1847,Speed 2
1.1,63253.43,0.086328,0.2378,1847,Speed 2
1.10167,63287.67,0.086661,0.2385,1848,Speed 2
1.10333,63287.67,0.086996,0.2395,1848,Speed 2
1.105,63321.92,0.087324,0.2402,1849,Speed 2
1.10667,63356.17,0.087653,0.2411,1850,Speed 2
1.10833,63356.17,0.087986,0.242,1850,Speed 2
1.11,63356.17,0.088321,0.2427,1850,Speed 2
1.11167,63390.41,0.088651,0.2436,1851,Speed 2
1.11333,63424.66,0.088985,0.2444,1852,Speed 2
1.115,63424.66,0.089315,0.2453,1852,Speed 2
1.11667,63458.91,0.089644,0.2461,1853,Speed 2
1.11833,63458.91,0.08998,0.2469,1853,Speed 2
1.12,63493.15,0.090312,0.2478,1854,Speed 2
1.12167,63493.15,0.090645,0.2485,1854,Speed 2
1.12333,63493.15,0.090976,0.2494,1854,Speed 2
1.125,63493.15,0.091308,0.2502,1854,Speed 2
1.12667,63527.4,0.091636,0.2511,1855,Speed 2
1.12833,63527.4,0.091969,0.2519,1855,Speed 2
1.13,63561.65,0.092301,0.2528,1856,Speed 2
1.13167,63595.89,0.092637,0.2535,1857,Speed 2
1.13333,63595.89,0.092967,0.2544,1857,Speed 2
1.135,63595.89,0.093297,0.2552,1857,Speed 2
1.13667,63630.14,0.093626,0.256,1858,Speed 2
1.13833,63630.14,0.093961,0.2569,1858,Speed 2
1.14,63664.39,0.094296,0.2577,1859,Speed 2
1.14167,63698.63,0.094629,0.2586,1860,Speed 2
1.14333,63698.63,0.094962,0.2594,1860,Speed 2
1.145,63698.63,0.095298,0.2602,1860,Speed 2
1.14667,63732.88,0.095632,0.2611,1861,Speed 2
1.14833,63732.88,0.095964,0.2619,1861,Speed 2
1.15,63767.13,0.0963,0.2627,1862,Speed 2
1.15167,63767.13,0.096639,0.2635,1862,Speed 2
1.15333,63767.13,0.096975,0.2644,1862,Speed 2
1.155,63767.13,0.097306,0.2652,1862,Speed 2
1.15667,63801.37,0.097643,0.2661,1863,Speed 2
1.15833,63835.62,0.097977,0.2669,1864,Speed 2
1.16,63835.62,0.098312,0.2677,1864,Speed 2
1.16167,63835.62,0.098648,0.2686,1864,Speed 2
1.16333,63869.87,0.098982,0.2693,1865,Speed 2
1.165,63869.87,0.099319,0.2702,1865,Speed 2
1.16667,63869.87,0.099656,0.271,1865,Speed 2
1.16833,63904.11,0.099989,0.2719,1866,Speed 2
1.17,63904.11,0.10033,0.2727,1866,Speed 2
1.17167,63938.36,0.10066,0.2736,1867,Speed 2
1.17333,63938.36,0.101,0.2744,1867,Speed 2
1.175,63938.36,0.10134,0.2752,1867,Speed 2
1.17667,63972.61,0.10167,0.2761,1868,Speed 2
1.17833,63972.61,0.10202,0.2768,1868,Speed 2
1.18,64006.85,0.10235,0.2777,1869,Speed 2
1.18167,64006.85,0.10269,0.2785,1869,Speed 2
1.18333,64006.85,0.10302,0.2794,1869,Speed 2
1.185,64041.1,0.10336,0.2802,1870,Speed 2
1.18667,64041.1,0.1037,0.2811,1870,Speed 2
1.18833,64041.1,0.10404,0.2819,1870,Speed 2
1.19,64041.1,0.10437,0.2828,1870,Speed 2
1.19167,64075.34,0.10471,0.2835,1871,Speed 2
1.19333,64075.34,0.10505,0.2844,1871,Speed 2
1.195,64109.59,0.10539,0.2853,1872,Speed 2
1.19667,64109.59,0.10573,0.2861,1872,Speed 2
1.19833,64109.59,0.10607,0.2868,1872,Speed 2
1.2,64143.84,0.10641,0.2877,1873,Speed 2
1.20167,64143.84,0.10675,0.2885,1873,Speed 2
1.20333,64143.84,0.10709,0.2893,1873,Speed 2
1.205,64143.84,0.10742,0.2902,1873,Speed 2
1.20667,64178.08,0.10777,0.2911,1874,Speed 2
1.20833,64178.08,0.1081,0.2919,1874,Speed 2
1.21,64178.08,0.10844,0.2927,1874,Speed 2
1.21167,64212.33,0.10878,0.2936,1875,Speed 2
1.21333,64212.33,0.10912,0.2944,1875,Speed 2
1.215,64212.33,0.10946,0.2952,1875,Speed 2
1.21667,64246.58,0.10981,0.296,1876,Speed 2
1.21833,64246.58,0.11015,0.2969,1876,Speed 2
1.22,64280.82,0.11049,0.2977,1877,Speed 2
1.22167,64280.82,0.11084,0.2985,1877,Speed 2
1.22333,64280.82,0.11118,0.2994,1877,Speed 2
1.225,64280.82,0.11152,0.3002,1877,Speed 2
1.22667,64315.07,0.11186,0.301,1878,Speed 2
1.22833,64315.07,0.1122,0.3019,1878,Speed 2
1.23,64315.07,0.11255,0.3027,1878,Speed 2
1.23167,64349.32,0.11289,0.3035,1879,Speed 2
1.23333,64349.32,0.11323,0.3044,1879,Speed 2
1.235,64349.32,0.11358,0.3052,1879,Speed 2
1.23667,64383.56,0.11392,0.3061,1880,Speed 2
1.23833,64383.56,0.11426,0.3069,1880,Speed 2
1.24,64383.56,0.11461,0.3077,1880,Speed 2
1.24167,64417.81,0.11495,0.3086,1881,Speed 2
1.24333,64417.81,0.1153,0.3094,1881,Speed 2
1.245,64417.81,0.11564,0.3103,1881,Speed 2
1.24667,64417.81,0.11599,0.3111,1881,Speed 2
1.24833,64452.06,0.11634,0.3119,1882,Speed 2
1.25,64452.06,0.11668,0.3127,1882,Speed 2
1.25167,64452.06,0.11703,0.3135,1882,Speed 2
1.25333,64452.06,0.11737,0.3144,1882,Speed 2
1.255,64486.3,0.11772,0.3152,1883,Speed 2
1.25667,64486.3,0.11806,0.3161,1883,Speed 2
1.25833,64486.3,0.1184,0.3169,1883,Speed 2
1.26,64520.55,0.11875,0.3178,1884,Speed 2
1.26167,64520.55,0.11909,0.3186,1884,Speed 2
1.26333,64520.55,0.11943,0.3194,1884,Speed 2
1.265,64520.55,0.11977,0.3203,1884,Speed 2
1.26667,64520.55,0.12012,0.3211,1884,Speed 2
1.26833,64520.55,0.12046,0.3219,1884,Speed 2
1.27,64554.8,0.12081,0.3228,1885,Speed 2
1.27167,64554.8,0.12115,0.3236,1885,Speed 2
1.27333,64554.8,0.12149,0.3244,1885,Speed 2
1.275,64589.04,0.12184,0.3252,1886,Speed 2
1.27667,64589.04,0.12219,0.3261,1886,Speed 2
1.27833,64589.04,0.12253,0.3269,1886,Speed 2
1.28,64589.04,0.12288,0.3278,1886,Speed 2
1.28167,64589.04,0.12323,0.3286,1886,Speed 2
1.28333,64623.29,0.12358,0.3294,1887,Speed 2
1.285,64623.29,0.12393,0.3302,1887,Speed 2
1.28667,64623.29,0.12427,0.3311,1887,Speed 2
1.28833,64623.29,0.12462,0.3319,1887,Speed 2
1.29,64623.29,0.12497,0.3327,1887,Speed 2
1.29167,64623.29,0.12532,0.3336,1887,Speed 2
1.29333,64657.54,0.12566,0.3344,1888,Speed 2
1.295,64657.54,0.12601,0.3352,1888,Speed 2
1.29667,64657.54,0.12637,0.3361,1888,Speed 2
1.29833,64657.54,0.12671,0.3369,1888,Speed 2
1.3,64657.54,0.12706,0.3378,1888,Speed 2
1.30167,64691.78,0.12741,0.3385,1889,Speed 2
1.30333,64691.78,0.12776,0.3393,1889,Speed 2
1.305,64691.78,0.12811,0.3403,1889,Speed 2
1.30667,64691.78,0.12846,0.3411,1889,Speed 2
1.30833,64726.03,0.12881,0.342,1890,Speed 2
1.31,64726.03,0.12916,0.3428,1890,Speed 2
1.31167,64726.03,0.12952,0.3437,1890,Speed 2
1.31333,64726.03,0.12987,0.3444,1890,Speed 2
1.315,64760.28,0.13022,0.3452,1891,Speed 2
1.31667,64760.28,0.13057,0.3461,1891,Speed 2
1.31833,64760.28,0.13093,0.3469,1891,Speed 2
1.32,64760.28,0.13128,0.3477,1891,Speed 2
1.32167,64794.52,0.13163,0.3486,1892,Speed 2
1.32333,64794.52,0.13199,0.3494,1892,Speed 2
1.325,64794.52,0.13234,0.3502,1892,Speed 2
1.32667,64794.52,0.13269,0.3511,1892,Speed 2
1.32833,64794.52,0.13305,0.3519,1892,Speed 2
1.33,64828.77,0.1334,0.3528,1893,Speed 2
1.33167,64794.52,0.13376,0.3535,1892,Speed 2
1.33333,64828.77,0.13411,0.3544,1893,Speed 2
1.335,64828.77,0.13447,0.3552,1893,Speed 2
1.33667,64828.77,0.13482,0.3561,1893,Speed 2
1.33833,64828.77,0.13518,0.3569,1893,Speed 2
1.34,64828.77,0.13553,0.3578,1893,Speed 2
1.34167,64828.77,0.13588,0.3586,1893,Speed 2
1.34333,64863.02,0.13624,0.3594,1894,Speed 2
1.345,64863.02,0.13659,0.3602,1894,Speed 2
1.34667,64863.02,0.13695,0.3611,1894,Speed 2
1.34833,64863.02,0.1373,0.3619,1894,Speed 2
1.35,64863.02,0.13766,0.3627,1894,Speed 2
1.35167,64863.02,0.13801,0.3635,1894,Speed 2
1.35333,64897.26,0.13837,0.3645,1895,Speed 2
1.355,64897.26,0.13872,0.3652,1895,Speed 2
1.35667,64897.26,0.13908,0.3661,1895,Speed 2
1.35833,64897.26,0.13944,0.3669,1895,Speed 2
1.36,64897.26,0.1398,0.3677,1895,Speed 2
1.36167,64897.26,0.14015,0.3686,1895,Speed 2
1.36333,64931.51,0.14051,0.3694,1896,Speed 2
1.365,64897.26,0.14087,0.3702,1895,Speed 2
1.36667,64863.02,0.14122,0.3711,1894,Speed 2
1.36833,64863.02,0.14154,0.3719,1894,Speed 2
1.37,64897.26,0.14188,0.3727,1895,Speed 2
1.37167,64897.26,0.14222,0.3735,1895,Speed 2
1.37333,64931.51,0.14257,0.3744,1896,Speed 2
1.375,64931.51,0.14293,0.3752,1896,Speed 2
1.37667,64931.51,0.14329,0.3761,1896,Speed 2
1.37833,64931.51,0.14365,0.3769,1896,Speed 2
1.38,64931.51,0.14401,0.3776,1896,Speed 2
1.38167,64965.76,0.14437,0.3785,1897,Speed 2
1.38333,64965.76,0.14472,0.3793,1897,Speed 2
1.385,64965.76,0.14509,0.3801,1897,Speed 2
1.38667,64965.76,0.14544,0.381,1897,Speed 2
1.38833,64965.76,0.1458,0.3819,1897,Speed 2
1.39,64965.76,0.14616,0.3827,1897,Speed 2
1.39167,64965.76,0.14652,0.3835,1897,Speed 2
1.39333,65000,0.14688,0.3845,1898,Speed 2
1.395,65000,0.14724,0.3852,1898,Speed 2
1.39667,65000,0.1476,0.3861,1898,Speed 2
1.39833,65000,0.14796,0.3869,1898,Speed 2
1.4,65000,0.14832,0.3877,1898,Speed 2
1.40167,65000,0.14868,0.3886,1898,Speed 2
1.40333,65000,0.14904,0.3894,1898,Speed 2
1.405,65000,0.14941,0.3903,1898,Speed 2
1.40667,65034.25,0.14977,0.3911,1899,Speed 2
1.40833,65034.25,0.15013,0.3919,1899,Speed 2
1.41,65034.25,0.15049,0.3927,1899,Speed 2
1.41167,65034.25,0.15085,0.3936,1899,Speed 2
1.41333,65034.25,0.15122,0.3944,1899,Speed 2
1.415,65034.25,0.15157,0.3952,1899,Speed 2
1.41667,65034.25,0.15193,0.396,1899,Speed 2
1.41833,65034.25,0.15229,0.3969,1899,Speed 2
1.42,65034.25,0.15265,0.3978,1899,Speed 2
1.42167,65034.25,0.15302,0.3986,1899,Speed 2
1.42333,65034.25,0.15338,0.3994,1899,Speed 2
1.425,65034.25,0.15374,0.4002,1899,Speed 2
1.42667,65068.5,0.15411,0.4011,1900,Speed 2
1.42833,65034.25,0.15447,0.4019,1899,Speed 2
1.43,65068.5,0.15483,0.4027,1900,Speed 2
1.43167,65068.5,0.1552,0.4035,1900,Speed 2
1.43333,65068.5,0.15556,0.4044,1900,Speed 2
1.435,65068.5,0.15592,0.4053,1900,Speed 2
1.43667,65068.5,0.15628,0.406,1900,Speed 2
1.43833,65068.5,0.15665,0.4069,1900,Speed 2
1.44,65068.5,0.15701,0.4076,1900,Speed 2
1.44167,65102.74,0.15738,0.4086,1901,Speed 2
1.44333,65068.5,0.15775,0.4094,1900,Speed 2
1.445,65068.5,0.15812,0.4102,1900,Speed 2
1.44667,65102.74,0.15848,0.4111,1901,Speed 2
1.44833,65102.74,0.15885,0.412,1901,Speed 2
1.45,65068.5,0.15922,0.4128,1900,Speed 2
1.45167,65102.74,0.15958,0.4135,1901,Speed 2
1.45333,65102.74,0.15995,0.4144,1901,Speed 2
1.455,65102.74,0.16031,0.4152,1901,Speed 2
1.45667,65102.74,0.16068,0.4161,1901,Speed 2
1.45833,65102.74,0.16105,0.4169,1901,Speed 2
1.46,65102.74,0.16142,0.4177,1901,Speed 2
1.46167,65102.74,0.16179,0.4186,1901,Speed 2
1.46333,65102.74,0.16215,0.4194,1901,Speed 2
1.465,65102.74,0.16252,0.4202,1901,Speed 2
1.46667,65102.74,0.16289,0.4209,1901,Speed 2
1.46833,65102.74,0.16325,0.4219,1901,Speed 2
1.47,65102.74,0.16362,0.4227,1901,Speed 2
1.47167,65136.99,0.16399,0.4235,1902,Speed 2
1.47333,65136.99,0.16436,0.4244,1902,Speed 2
1.475,65102.74,0.16473,0.4252,1901,Speed 2
1.47667,65136.99,0.1651,0.4261,1902,Speed 2
1.47833,65136.99,0.16548,0.4269,1902,Speed 2
1.48,65102.74,0.16584,0.4277,1901,Speed 2
1.48167,65136.99,0.16622,0.4286,1902,Speed 2
1.48333,65136.99,0.16659,0.4294,1902,Speed 2
1.485,65136.99,0.16696,0.4302,1902,Speed 2
1.48667,65136.99,0.16733,0.4311,1902,Speed 2
1.48833,65136.99,0.16771,0.4319,1902,Speed 2
1.49,65136.99,0.16808,0.4327,1902,Speed 2
1.49167,65136.99,0.16845,0.4335,1902,Speed 2
1.49333,65136.99,0.16882,0.4344,1902,Speed 2
1.495,65136.99,0.1692,0.4352,1902,Speed 2
1.49667,65136.99,0.16957,0.436,1902,Speed 2
1.49833,65136.99,0.16995,0.4368,1902,Speed 2
1.5,65136.99,0.17033,0.4378,1902,Speed 2
1.50167,65136.99,0.1707,0.4386,1902,Speed 2
1.50333,65136.99,0.17107,0.4393,1902,Speed 2
1.505,65136.99,0.17144,0.4403,1902,Speed 2
1.50667,65136.99,0.17182,0.4411,1902,Speed 2
1.50833,65136.99,0.1722,0.4419,1902,Speed 2
1.51,65136.99,0.17257,0.4426,1902,Speed 2
1.51167,65136.99,0.17295,0.4435,1902,Speed 2
1.51333,65171.24,0.17332,0.4443,1903,Speed 2
1.515,65136.99,0.1737,0.4452,1902,Speed 2
1.51667,65136.99,0.17408,0.4461,1902,Speed 2
1.51833,65136.99,0.17446,0.447,1902,Speed 2
1.52,65136.99,0.17484,0.4477,1902,Speed 2
1.52167,65136.99,0.17521,0.4485,1902,Speed 2
1.52333,65136.99,0.17559,0.4494,1902,Speed 2
1.525,65136.99,0.17597,0.4502,1902,Speed 2
1.52667,65136.99,0.17635,0.4511,1902,Speed 2
1.52833,65136.99,0.17672,0.4519,1902,Speed 2